Folder: Master-Praktikum/V44_Reflectrometry/data

File: Detektorscsan.UXD
; C:\DIFFDAT1\Praktikum\Fisher_Margaryan\Detektorscsan.raw(Diffrac Plus V1.01 file) converted by XCH V1.0
_FILEVERSION=2
_SITE='Deutschland'
_USER='Administrator'
_GONIOMETER_CODE=4885
; D8 Theta/Theta; Special
_SAMPLE_CHANGER_CODE=0
_ATTACHMENTS_CODE=0
_GONIOMETER_RADIUS=350
_FIXED_DIVSLIT=0.600000
_FIXED_SAMPLESLIT=0.000000
_FIXED_DETSLIT=11.66
_MONOCHROMATOR=0
; None
_THIN_FILM='N'
_BETA_FILTER='Y'
_FIXED_ANTISLIT=8.340000
_ANALYZER_CODE=0
; None
_DATEMEASURED='15-Dec-2025 11:20:51'
_WL_UNIT='A'
_WL1=1.540600
_WL2=1.544390
_WL3=1.392220
_WLRATIO=0.500000
_ANODE='Cu'
; (Data for Range number 1)
_DRIVE='2THETA'
_STEPTIME=0.999980
_STEPSIZE=0.020000
_STEPMODE='C'
_START=-0.500000
_THETA=0.000000
_2THETA=-0.500000
_KHI=0.000000
_PHI=92.46
_X=0.000000
_Y=0.000000
_Z=-20
_DIVERGENCE=0.000000
_ANTISCATTER=0.000000
_DETECTOR=5
_DETECTORSLIT='unkn'
_AUX1=0.000000
_AUX2=0.000000
_AUX3=0.000000
_TIMESTARTED=2.000000
_TEMP_RATE=-1.000000
_TEMP_DELAY=-1.000000
_KV=30
_MA=30
_RANGE_WL=1.540600
_3DPLANE=0
_GONIOMETER=-0.510000
_PSDCHANNEL0=0
_2THETACOUNTS
  -0.5000        61
  -0.4800        58
  -0.4600        72
  -0.4400       131
  -0.4200       189
  -0.4000       330
  -0.3800       532
  -0.3600       795
  -0.3400      1176
  -0.3200      1518
  -0.3000      1859
  -0.2800      2452
  -0.2600      2912
  -0.2400      3791
  -0.2200      4705
  -0.2000      5508
  -0.1800      6613
  -0.1600      8020
  -0.1400      9566
  -0.1200     12641
  -0.1000     19789
  -0.0800     34479
  -0.0600     69781
  -0.0400    141305
  -0.0200    196034
   0.0000    231826
   0.0200    201576
   0.0400    125377
   0.0600     58558
   0.0800     28160
   0.1000     16967
   0.1200     12290
   0.1400      8337
   0.1600      6825
   0.1800      5918
   0.2000      4792
   0.2200      4186
   0.2400      3719
   0.2600      3246
   0.2800      2812
   0.3000      2135
   0.3200      1848
   0.3400      1639
   0.3600      1413
   0.3800      1339
   0.4000      1035
   0.4200       882
   0.4400       725
   0.4600       574
   0.4800       448
   0.5000       316

File: omega_2theta.UXD
; C:\DIFFDAT1\Praktikum\Fisher_Margaryan\omega_2theta.raw(Diffrac Plus V1.01 file) converted by XCH V1.0
_FILEVERSION=2
_SITE='Deutschland'
_USER='Administrator'
_GONIOMETER_CODE=4885
; D8 Theta/Theta; Special
_SAMPLE_CHANGER_CODE=0
_ATTACHMENTS_CODE=0
_GONIOMETER_RADIUS=350
_FIXED_DIVSLIT=0.600000
_FIXED_SAMPLESLIT=0.000000
_FIXED_DETSLIT=11.66
_MONOCHROMATOR=0
; None
_THIN_FILM='N'
_BETA_FILTER='Y'
_FIXED_ANTISLIT=8.340000
_ANALYZER_CODE=0
; None
_DATEMEASURED='15-Dec-2025 11:58:14'
_WL_UNIT='A'
_WL1=1.540600
_WL2=1.544390
_WL3=1.392220
_WLRATIO=0.500000
_ANODE='Cu'
; (Data for Range number 1)
_DRIVE='THETA'
_STEPTIME=5.000660
_STEPSIZE=0.005000
_STEPMODE='C'
_START=0.000000
_THETA=0.000000
_2THETA=0.000000
_KHI=0.000000
_PHI=92.46
_X=-1.000000
_Y=-2.500000
_Z=0.256000
_DIVERGENCE=0.000000
_ANTISCATTER=0.000000
_DETECTOR=5
_DETECTORSLIT='unkn'
_AUX1=0.000000
_AUX2=0.000000
_AUX3=0.000000
_TIMESTARTED=2.000000
_TEMP_RATE=-1.000000
_TEMP_DELAY=-1.000000
_KV=30
_MA=30
_RANGE_WL=1.540600
_3DPLANE=0
_GONIOMETER=-0.002500
_PSDCHANNEL0=0
_2THETACOUNTS
   0.0000    449978
   0.0100    718949
   0.0200    669948
   0.0300    351494
   0.0400    204913
   0.0500    162368
   0.0600    156679
   0.0700    156176
   0.0800    167985
   0.0900    184949
   0.1000    200045
   0.1100    216003
   0.1200    231492
   0.1300    253493
   0.1400    271542
   0.1500    289722
   0.1600    305555
   0.1700    308509
   0.1800    295218
   0.1900    318185
   0.2000    320042
   0.2100    346726
   0.2200    321229
   0.2300    282449
   0.2400    180535
   0.2500     77150
   0.2600     38800
   0.2700     38458
   0.2800     33052
   0.2900     18686
   0.3000     10455
   0.3100     12231
   0.3200     13753
   0.3300     10155
   0.3400      5740
   0.3500      4767
   0.3600      6028
   0.3700      6395
   0.3800      4320
   0.3900      2771
   0.4000      2691
   0.4100      3460
   0.4200      3413
   0.4300      2508
   0.4400      1677
   0.4500      1730
   0.4600      2072
   0.4700      2103
   0.4800      1668
   0.4900      1192
   0.5000      1128
   0.5100      1437
   0.5200      1453
   0.5300      1197
   0.5400       933
   0.5500       859
   0.5600      1087
   0.5700      1197
   0.5800      1058
   0.5900       852
   0.6000       867
   0.6100       980
   0.6200      1117
   0.6300      1062
   0.6400      1216
   0.6500      1538
   0.6600      2352
   0.6700      3184
   0.6800      3920
   0.6900      4660
   0.7000      5397
   0.7100      5922
   0.7200      5635
   0.7300      5064
   0.7400      4347
   0.7500      3531
   0.7600      2742
   0.7700      2043
   0.7800      1345
   0.7900       622
   0.8000       170
   0.8100        91
   0.8200        99
   0.8300       122
   0.8400       108
   0.8500        61
   0.8600        66
   0.8700        70
   0.8800        95
   0.8900        85
   0.9000        65
   0.9100        43
   0.9200        44
   0.9300        63
   0.9400        61
   0.9500        51
   0.9600        30
   0.9700        32
   0.9800        45
   0.9900        48
   1.0000        37
   1.0100        27
   1.0200        34
   1.0300        40
   1.0400        37
   1.0500        34
   1.0600        29
   1.0700        31
   1.0800        28
   1.0900        31
   1.1000        25
   1.1100        23
   1.1200        24
   1.1300        19
   1.1400        22
   1.1500        26
   1.1600        20
   1.1700        18
   1.1800        14
   1.1900        16
   1.2000        15
   1.2100        23
   1.2200        16
   1.2300        10
   1.2400        14
   1.2500        15
   1.2600        10
   1.2700        12
   1.2800        11
   1.2900        11
   1.3000        11
   1.3100        13
   1.3200        17
   1.3300         9
   1.3400         4
   1.3500        13
   1.3600        12
   1.3700         9
   1.3800         9
   1.3900         5
   1.4000        11
   1.4100         4
   1.4200         5
   1.4300         5
   1.4400         5
   1.4500         7
   1.4600         7
   1.4700         5
   1.4800         8
   1.4900         7
   1.5000         6

File: omega_2theta_background.UXD
; C:\DIFFDAT1\Praktikum\Fisher_Margaryan\omega_2theta_background.raw(Diffrac Plus V1.01 file) converted by XCH V1.0
_FILEVERSION=2
_SITE='Deutschland'
_USER='Administrator'
_GONIOMETER_CODE=4885
; D8 Theta/Theta; Special
_SAMPLE_CHANGER_CODE=0
_ATTACHMENTS_CODE=0
_GONIOMETER_RADIUS=350
_FIXED_DIVSLIT=0.600000
_FIXED_SAMPLESLIT=0.000000
_FIXED_DETSLIT=11.66
_MONOCHROMATOR=0
; None
_THIN_FILM='N'
_BETA_FILTER='Y'
_FIXED_ANTISLIT=8.340000
_ANALYZER_CODE=0
; None
_DATEMEASURED='15-Dec-2025 12:25:11'
_WL_UNIT='A'
_WL1=1.540600
_WL2=1.544390
_WL3=1.392220
_WLRATIO=0.500000
_ANODE='Cu'
; (Data for Range number 1)
_DRIVE='THETA'
_STEPTIME=5.000660
_STEPSIZE=0.005000
_STEPMODE='C'
_START=0.000000
_THETA=0.000000
_2THETA=0.100000
_KHI=0.000000
_PHI=92.46
_X=-1.000000
_Y=-2.500000
_Z=0.256000
_DIVERGENCE=0.000000
_ANTISCATTER=0.000000
_DETECTOR=5
_DETECTORSLIT='unkn'
_AUX1=0.000000
_AUX2=0.000000
_AUX3=0.000000
_TIMESTARTED=2.000000
_TEMP_RATE=-1.000000
_TEMP_DELAY=-1.000000
_KV=30
_MA=30
_RANGE_WL=1.540600
_3DPLANE=0
_GONIOMETER=0.097500
_PSDCHANNEL0=0
_2THETACOUNTS
   0.0000     83665
   0.0100     64080
   0.0200     44084
   0.0300     38842
   0.0400     35851
   0.0500     32033
   0.0600     31540
   0.0700     34104
   0.0800     38820
   0.0900     39679
   0.1000     37860
   0.1100     30507
   0.1200     30745
   0.1300     24117
   0.1400     17318
   0.1500     14870
   0.1600     12421
   0.1700     10160
   0.1800      8712
   0.1900      7057
   0.2000      5428
   0.2100      3698
   0.2200      2653
   0.2300      1889
   0.2400      1315
   0.2500       901
   0.2600       594
   0.2700       537
   0.2800       438
   0.2900       431
   0.3000       411
   0.3100       341
   0.3200       347
   0.3300       312
   0.3400       353
   0.3500       294
   0.3600       294
   0.3700       311
   0.3800       277
   0.3900       296
   0.4000       313
   0.4100       281
   0.4200       294
   0.4300       263
   0.4400       348
   0.4500       331
   0.4600       311
   0.4700       342
   0.4800       304
   0.4900       379
   0.5000       416
   0.5100       391
   0.5200       427
   0.5300       441
   0.5400       449
   0.5500       544
   0.5600       570
   0.5700       625
   0.5800       684
   0.5900       987
   0.6000      1369
   0.6100      2119
   0.6200      2858
   0.6300      3660
   0.6400      4706
   0.6500      5215
   0.6600      5633
   0.6700      5432
   0.6800      4866
   0.6900      4035
   0.7000      3353
   0.7100      2639
   0.7200      1916
   0.7300      1124
   0.7400       434
   0.7500        58
   0.7600        15
   0.7700        23
   0.7800        10
   0.7900        17
   0.8000        17
   0.8100        22
   0.8200        13
   0.8300        12
   0.8400        12
   0.8500        12
   0.8600        10
   0.8700        12
   0.8800        11
   0.8900         8
   0.9000        11
   0.9100        11
   0.9200         9
   0.9300         8
   0.9400         9
   0.9500         5
   0.9600        13
   0.9700        11
   0.9800        11
   0.9900         9
   1.0000        13
   1.0100        11
   1.0200         6
   1.0300         7
   1.0400         8
   1.0500         8
   1.0600         9
   1.0700         8
   1.0800         8
   1.0900         7
   1.1000         7
   1.1100         5
   1.1200         9
   1.1300         6
   1.1400         9
   1.1500         7
   1.1600         6
   1.1700        14
   1.1800         3
   1.1900         6
   1.2000        10
   1.2100         7
   1.2200         9
   1.2300         2
   1.2400         5
   1.2500        10
   1.2600         4
   1.2700         4
   1.2800         2
   1.2900         3
   1.3000        10
   1.3100         5
   1.3200         8
   1.3300         4
   1.3400         5
   1.3500         3
   1.3600         6
   1.3700         2
   1.3800         2
   1.3900         7
   1.4000         4
   1.4100         3
   1.4200         4
   1.4300         2
   1.4400         0
   1.4500         2
   1.4600         3
   1.4700         3
   1.4800         1
   1.4900         0
   1.5000         1

File: rocking_scan_3.UXD
; C:\DIFFDAT1\Praktikum\Fisher_Margaryan\rocking_scan_3.raw(Diffrac Plus V1.01 file) converted by XCH V1.0
_FILEVERSION=2
_SITE='Deutschland'
_USER='Administrator'
_GONIOMETER_CODE=4885
; D8 Theta/Theta; Special
_SAMPLE_CHANGER_CODE=0
_ATTACHMENTS_CODE=0
_GONIOMETER_RADIUS=350
_FIXED_DIVSLIT=0.600000
_FIXED_SAMPLESLIT=0.000000
_FIXED_DETSLIT=11.66
_MONOCHROMATOR=0
; None
_THIN_FILM='N'
_BETA_FILTER='Y'
_FIXED_ANTISLIT=8.340000
_ANALYZER_CODE=0
; None
_DATEMEASURED='15-Dec-2025 11:54:27'
_WL_UNIT='A'
_WL1=1.540600
_WL2=1.544390
_WL3=1.392220
_WLRATIO=0.500000
_ANODE='Cu'
; (Data for Range number 1)
_DRIVE='THETA'
_STEPTIME=1.000000
_STEPSIZE=0.005000
_STEPMODE='S'
_START=0.200000
_THETA=0.200000
_2THETA=0.500000
_KHI=0.000000
_PHI=92.46
_X=-1.000000
_Y=-2.500000
_Z=0.256000
_DIVERGENCE=0.000000
_ANTISCATTER=0.000000
_DETECTOR=5
_DETECTORSLIT='unkn'
_AUX1=0.000000
_AUX2=0.000000
_AUX3=0.000000
_TIMESTARTED=2.000000
_TEMP_RATE=-1.000000
_TEMP_DELAY=-1.000000
_KV=30
_MA=30
_RANGE_WL=1.540600
_3DPLANE=0
_GONIOMETER=0.500000
_PSDCHANNEL0=0
_2THETACOUNTS
   0.2000       770
   0.2050       860
   0.2100       939
   0.2150      1139
   0.2200      1315
   0.2250      1682
   0.2300      2100
   0.2350      3509
   0.2400      5943
   0.2450      8032
   0.2500      9546
   0.2550     10929
   0.2600     12832
   0.2650     14677
   0.2700     12422
   0.2750      8227
   0.2800      5714
   0.2850      3566
   0.2900      2362
   0.2950      1657
   0.3000      1303
   0.3050      1018
   0.3100       826
   0.3150       666
   0.3200       666
   0.3250       527
   0.3300       524
   0.3350       505
   0.3400       516
   0.3450       479
   0.3500       424
   0.3550       434
   0.3600       450
   0.3650       418
   0.3700       420
   0.3750       434
   0.3800       410
   0.3850       418
   0.3900       383
   0.3950       388
   0.4000       387
   0.4050       387
   0.4100       385
   0.4150       351
   0.4200       361
   0.4250       337
   0.4300       366
   0.4350       374
   0.4400       381
   0.4450       361
   0.4500       353
   0.4550       316
   0.4600       342
   0.4650       343
   0.4700       356
   0.4750       328
   0.4800       342
   0.4850       364
   0.4900       334
   0.4950       355
   0.5000       326

File: Xscan.UXD
; C:\DIFFDAT1\Praktikum\Fisher_Margaryan\Xscan.raw(Diffrac Plus V1.01 file) converted by XCH V1.0
_FILEVERSION=2
_SITE='Deutschland'
_USER='Administrator'
_GONIOMETER_CODE=4885
; D8 Theta/Theta; Special
_SAMPLE_CHANGER_CODE=0
_ATTACHMENTS_CODE=0
_GONIOMETER_RADIUS=350
_FIXED_DIVSLIT=0.600000
_FIXED_SAMPLESLIT=0.000000
_FIXED_DETSLIT=11.66
_MONOCHROMATOR=0
; None
_THIN_FILM='N'
_BETA_FILTER='Y'
_FIXED_ANTISLIT=8.340000
_ANALYZER_CODE=0
; None
_DATEMEASURED='15-Dec-2025 11:25:15'
_WL_UNIT='A'
_WL1=1.540600
_WL2=1.544390
_WL3=1.392220
_WLRATIO=0.500000
_ANODE='Cu'
; (Data for Range number 1)
_DRIVE='X'
_STEPTIME=1.000000
_STEPSIZE=1.000000
_STEPMODE='C'
_START=-20
_THETA=0.000000
_2THETA=0.000000
_KHI=0.000000
_PHI=92.46
_X=-20
_Y=0.000000
_Z=0.240000
_DIVERGENCE=0.000000
_ANTISCATTER=0.000000
_DETECTOR=5
_DETECTORSLIT='unkn'
_AUX1=0.000000
_AUX2=0.000000
_AUX3=0.000000
_TIMESTARTED=4.000000
_TEMP_RATE=-1.000000
_TEMP_DELAY=-1.000000
_KV=30
_MA=30
_RANGE_WL=1.540600
_3DPLANE=0
_GONIOMETER=0.000000
_PSDCHANNEL0=0
_2THETACOUNTS
 -20.0000    233935
 -19.0000    233729
 -18.0000    233935
 -17.0000    233714
 -16.0000    233840
 -15.0000    234053
 -14.0000    234053
 -13.0000    230996
 -12.0000    230688
 -11.0000    139959
 -10.0000    101575
  -9.0000    102716
  -8.0000    104424
  -7.0000    104809
  -6.0000    106224
  -5.0000    107455
  -4.0000    108886
  -3.0000    109885
  -2.0000    111121
  -1.0000    113099
   0.0000    113581
   1.0000    115295
   2.0000    115730
   3.0000    117170
   4.0000    118192
   5.0000    118785
   6.0000    119906
   7.0000    120204
   8.0000    122343
   9.0000    124012
  10.0000    124806
  11.0000    157081
  12.0000    228057
  13.0000    231391
  14.0000    232663
  15.0000    233255
  16.0000    233161
  17.0000    231359
  18.0000    231225
  19.0000    230727
  20.0000    230609

File: Zscan.UXD
; C:\DIFFDAT1\Praktikum\Fisher_Margaryan\Zscan.raw(Diffrac Plus V1.01 file) converted by XCH V1.0
_FILEVERSION=2
_SITE='Deutschland'
_USER='Administrator'
_GONIOMETER_CODE=4885
; D8 Theta/Theta; Special
_SAMPLE_CHANGER_CODE=0
_ATTACHMENTS_CODE=0
_GONIOMETER_RADIUS=350
_FIXED_DIVSLIT=0.600000
_FIXED_SAMPLESLIT=0.000000
_FIXED_DETSLIT=11.66
_MONOCHROMATOR=0
; None
_THIN_FILM='N'
_BETA_FILTER='Y'
_FIXED_ANTISLIT=8.340000
_ANALYZER_CODE=0
; None
_DATEMEASURED='15-Dec-2025 11:23:15'
_WL_UNIT='A'
_WL1=1.540600
_WL2=1.544390
_WL3=1.392220
_WLRATIO=0.500000
_ANODE='Cu'
; (Data for Range number 1)
_DRIVE='Z'
_STEPTIME=1.000000
_STEPSIZE=0.040000
_STEPMODE='C'
_START=-1.000000
_THETA=0.000000
_2THETA=0.000000
_KHI=0.000000
_PHI=92.46
_X=0.000000
_Y=0.000000
_Z=-1.000000
_DIVERGENCE=0.000000
_ANTISCATTER=0.000000
_DETECTOR=5
_DETECTORSLIT='unkn'
_AUX1=0.000000
_AUX2=0.000000
_AUX3=0.000000
_TIMESTARTED=7.000000
_TEMP_RATE=-1.000000
_TEMP_DELAY=-1.000000
_KV=30
_MA=30
_RANGE_WL=1.540600
_3DPLANE=0
_GONIOMETER=0.000000
_PSDCHANNEL0=0
_2THETACOUNTS
  -1.0000    231194
  -0.9600    233240
  -0.9200    234014
  -0.8800    233753
  -0.8400    230293
  -0.8000    233453
  -0.7600    233058
  -0.7200    233682
  -0.6800    231723
  -0.6400    233216
  -0.6000    231968
  -0.5600    233437
  -0.5200    232086
  -0.4800    234749
  -0.4400    233429
  -0.4000    233753
  -0.3600    232363
  -0.3200    234038
  -0.2800    232853
  -0.2400    235610
  -0.2000    233058
  -0.1600    231004
  -0.1200    234859
  -0.0800    236044
  -0.0400    231810
   0.0000    232379
   0.0400    232560
   0.0800    233816
   0.1200    232829
   0.1600    231723
   0.2000    182695
   0.2400    116049
   0.2800     47392
   0.3200      1458
   0.3600        25
   0.4000        21
   0.4400        11
   0.4800        12
   0.5200        12
   0.5600         8
   0.6000         4
   0.6400         4
   0.6800         6
   0.7200        13
   0.7600        45
   0.8000       181
   0.8400       408
   0.8800       294
   0.9200        54
   0.9600         3
   1.0000         3

File: Zscan_2.UXD
; C:\DIFFDAT1\Praktikum\Fisher_Margaryan\Zscan_2.raw(Diffrac Plus V1.01 file) converted by XCH V1.0
_FILEVERSION=2
_SITE='Deutschland'
_USER='Administrator'
_GONIOMETER_CODE=4885
; D8 Theta/Theta; Special
_SAMPLE_CHANGER_CODE=0
_ATTACHMENTS_CODE=0
_GONIOMETER_RADIUS=350
_FIXED_DIVSLIT=0.600000
_FIXED_SAMPLESLIT=0.000000
_FIXED_DETSLIT=11.66
_MONOCHROMATOR=0
; None
_THIN_FILM='N'
_BETA_FILTER='Y'
_FIXED_ANTISLIT=8.340000
_ANALYZER_CODE=0
; None
_DATEMEASURED='15-Dec-2025 11:43:52'
_WL_UNIT='A'
_WL1=1.540600
_WL2=1.544390
_WL3=1.392220
_WLRATIO=0.500000
_ANODE='Cu'
; (Data for Range number 1)
_DRIVE='Z'
_STEPTIME=1.000000
_STEPSIZE=0.020000
_STEPMODE='C'
_START=-0.500000
_THETA=0.000000
_2THETA=0.000000
_KHI=0.000000
_PHI=92.46
_X=-1.000000
_Y=-2.500000
_Z=-0.500000
_DIVERGENCE=0.000000
_ANTISCATTER=0.000000
_DETECTOR=5
_DETECTORSLIT='unkn'
_AUX1=0.000000
_AUX2=0.000000
_AUX3=0.000000
_TIMESTARTED=3.000000
_TEMP_RATE=-1.000000
_TEMP_DELAY=-1.000000
_KV=30
_MA=30
_RANGE_WL=1.540600
_3DPLANE=0
_GONIOMETER=0.000000
_PSDCHANNEL0=0
_2THETACOUNTS
  -0.5000    232236
  -0.4800    232039
  -0.4600    234219
  -0.4400    232560
  -0.4200    232766
  -0.4000    233856
  -0.3800    232742
  -0.3600    233342
  -0.3400    234061
  -0.3200    233058
  -0.3000    232616
  -0.2800    233342
  -0.2600    232710
  -0.2400    233508
  -0.2200    234140
  -0.2000    233192
  -0.1800    233761
  -0.1600    233832
  -0.1400    235894
  -0.1200    235128
  -0.1000    232718
  -0.0800    234875
  -0.0600    232631
  -0.0400    233248
  -0.0200    233769
   0.0000    234772
   0.0200    236724
   0.0400    234907
   0.0600    239291
   0.0800    237308
   0.1000    237474
   0.1200    241385
   0.1400    239781
   0.1600    235412
   0.1800    216879
   0.2000    183067
   0.2200    146434
   0.2400    117351
   0.2600     83442
   0.2800     47583
   0.3000     11632
   0.3200       169
   0.3400        28
   0.3600        16
   0.3800        17
   0.4000        20
   0.4200        15
   0.4400        10
   0.4600        11
   0.4800        13
   0.5000        15

File: Zscan_3.UXD
; C:\DIFFDAT1\Praktikum\Fisher_Margaryan\Zscan_3.raw(Diffrac Plus V1.01 file) converted by XCH V1.0
_FILEVERSION=2
_SITE='Deutschland'
_USER='Administrator'
_GONIOMETER_CODE=4885
; D8 Theta/Theta; Special
_SAMPLE_CHANGER_CODE=0
_ATTACHMENTS_CODE=0
_GONIOMETER_RADIUS=350
_FIXED_DIVSLIT=0.600000
_FIXED_SAMPLESLIT=0.000000
_FIXED_DETSLIT=11.66
_MONOCHROMATOR=0
; None
_THIN_FILM='N'
_BETA_FILTER='Y'
_FIXED_ANTISLIT=8.340000
_ANALYZER_CODE=0
; None
_DATEMEASURED='15-Dec-2025 11:50:57'
_WL_UNIT='A'
_WL1=1.540600
_WL2=1.544390
_WL3=1.392220
_WLRATIO=0.500000
_ANODE='Cu'
; (Data for Range number 1)
_DRIVE='Z'
_STEPTIME=1.000000
_STEPSIZE=0.020000
_STEPMODE='C'
_START=-0.500000
_THETA=0.150000
_2THETA=0.300000
_KHI=0.000000
_PHI=92.46
_X=-1.000000
_Y=-2.500000
_Z=-0.500000
_DIVERGENCE=0.000000
_ANTISCATTER=0.000000
_DETECTOR=5
_DETECTORSLIT='unkn'
_AUX1=0.000000
_AUX2=0.000000
_AUX3=0.000000
_TIMESTARTED=2.000000
_TEMP_RATE=-1.000000
_TEMP_DELAY=-1.000000
_KV=30
_MA=30
_RANGE_WL=1.540600
_3DPLANE=0
_GONIOMETER=0.300000
_PSDCHANNEL0=0
_2THETACOUNTS
  -0.5000      2148
  -0.4800      2267
  -0.4600      2179
  -0.4400      2174
  -0.4200      2246
  -0.4000      2228
  -0.3800      2219
  -0.3600      2272
  -0.3400      2240
  -0.3200      2251
  -0.3000      2190
  -0.2800      2294
  -0.2600      2217
  -0.2400      2192
  -0.2200      2265
  -0.2000      2308
  -0.1800      2307
  -0.1600      2365
  -0.1400      2379
  -0.1200      2537
  -0.1000      2832
  -0.0800      3160
  -0.0600      3590
  -0.0400      4559
  -0.0200      5832
   0.0000      7582
   0.0200     10079
   0.0400     13471
   0.0600     18269
   0.0800     24748
   0.1000     30891
   0.1200     37315
   0.1400     43436
   0.1600     49466
   0.1800     55428
   0.2000     61389
   0.2200     65661
   0.2400     68283
   0.2600     68930
   0.2800     67994
   0.3000     62733
   0.3200     55904
   0.3400     47550
   0.3600     37170
   0.3800     23296
   0.4000     10967
   0.4200      4656
   0.4400      3255
   0.4600      2722
   0.4800      2391
   0.5000      2366